,HCPID,Trial,RunNumber,TrialType,RunTrialNumber,Block,CurrentResponse,QuestionMark.ACC,RT,QuestionMark.OnsetDelay,ConsecSameResp,ConsecLargerGuesses,ConsecSmallerGuesses,ConsecRTLess200,FutureResponse,PastResponse,ResponseSwitch,PreviousFeedback,BlockType,BlockTypeCoded
8769,156637_fnca,1,1,Reward,2,5,3.0,0,365,26,1,1,0,0,3.0,,0.0,,MostlyReward,MostlyReward
8770,156637_fnca,2,1,Reward,3,5,3.0,0,393,13,2,2,0,0,2.0,3.0,1.0,Reward,MostlyReward,MostlyReward
8771,156637_fnca,3,1,Punishment,4,5,2.0,0,485,13,1,0,1,0,2.0,3.0,0.0,Reward,MostlyReward,MostlyReward
8772,156637_fnca,4,1,Reward,5,5,2.0,0,395,13,2,0,2,0,2.0,2.0,0.0,Punishment,MostlyReward,MostlyReward
8773,156637_fnca,5,1,Reward,6,5,2.0,0,500,13,3,0,3,0,3.0,2.0,1.0,Reward,MostlyReward,MostlyReward
8774,156637_fnca,6,1,Reward,7,5,3.0,0,305,13,1,1,0,0,2.0,2.0,1.0,Reward,MostlyReward,MostlyReward
8775,156637_fnca,7,1,Neutral,8,5,2.0,0,340,13,1,0,1,0,2.0,3.0,0.0,Reward,MostlyReward,MostlyReward
8777,156637_fnca,10,1,Reward,10,5,3.0,0,780,13,1,1,0,0,3.0,,0.0,,MostlyPunishment,MostlyPunishment
8778,156637_fnca,11,1,Punishment,11,5,3.0,0,380,13,2,2,0,0,3.0,3.0,0.0,Reward,MostlyPunishment,MostlyPunishment
8779,156637_fnca,12,1,Punishment,12,5,3.0,0,286,13,3,3,0,0,3.0,3.0,0.0,Punishment,MostlyPunishment,MostlyPunishment
8780,156637_fnca,13,1,Punishment,13,5,3.0,0,576,13,4,4,0,0,3.0,3.0,0.0,Punishment,MostlyPunishment,MostlyPunishment
8781,156637_fnca,14,1,Neutral,14,5,3.0,0,388,13,5,5,0,0,3.0,3.0,0.0,Punishment,MostlyPunishment,MostlyPunishment
8782,156637_fnca,15,1,Punishment,15,5,3.0,0,379,13,6,6,0,0,2.0,3.0,1.0,Neutral,MostlyPunishment,MostlyPunishment
8783,156637_fnca,16,1,Punishment,16,5,2.0,0,324,13,1,0,1,0,2.0,3.0,0.0,Punishment,MostlyPunishment,MostlyPunishment
8785,156637_fnca,19,1,Punishment,18,5,3.0,0,1304,13,1,1,0,0,3.0,,0.0,,MostlyPunishment,MostlyPunishment
8786,156637_fnca,20,1,Punishment,19,5,3.0,0,376,13,2,2,0,0,2.0,3.0,1.0,Punishment,MostlyPunishment,MostlyPunishment
8787,156637_fnca,21,1,Punishment,20,5,2.0,0,679,13,1,0,1,0,2.0,3.0,0.0,Punishment,MostlyPunishment,MostlyPunishment
8788,156637_fnca,22,1,Neutral,21,5,2.0,0,293,14,2,0,2,0,2.0,2.0,0.0,Punishment,MostlyPunishment,MostlyPunishment
8789,156637_fnca,23,1,Punishment,22,5,2.0,0,417,14,3,0,3,0,2.0,2.0,0.0,Neutral,MostlyPunishment,MostlyPunishment
8790,156637_fnca,24,1,Neutral,23,5,2.0,0,339,13,4,0,4,0,3.0,2.0,1.0,Punishment,MostlyPunishment,MostlyPunishment
8791,156637_fnca,25,1,Punishment,24,5,3.0,0,680,14,1,1,0,0,3.0,2.0,0.0,Neutral,MostlyPunishment,MostlyPunishment
8793,156637_fnca,28,1,Reward,26,5,3.0,0,864,13,3,3,0,0,3.0,,0.0,,MostlyReward,MostlyReward
8794,156637_fnca,29,1,Reward,27,5,3.0,0,317,14,4,4,0,0,2.0,3.0,1.0,Reward,MostlyReward,MostlyReward
8795,156637_fnca,30,1,Punishment,28,5,2.0,0,429,14,1,0,1,0,2.0,3.0,0.0,Reward,MostlyReward,MostlyReward
8796,156637_fnca,31,1,Reward,29,5,2.0,0,469,13,2,0,2,0,2.0,2.0,0.0,Punishment,MostlyReward,MostlyReward
8797,156637_fnca,32,1,Punishment,30,5,2.0,0,403,13,3,0,3,0,3.0,2.0,1.0,Reward,MostlyReward,MostlyReward
8798,156637_fnca,33,1,Reward,31,5,3.0,0,295,13,1,1,0,0,3.0,2.0,0.0,Punishment,MostlyReward,MostlyReward
8799,156637_fnca,34,1,Reward,32,5,3.0,0,847,13,2,2,0,0,3.0,3.0,0.0,Reward,MostlyReward,MostlyReward
8801,156637_fnca,1,2,Punishment,2,5,2.0,0,728,27,1,0,1,0,2.0,,0.0,,,MostlyPunishment
8802,156637_fnca,2,2,Punishment,3,5,2.0,0,390,13,2,0,2,0,2.0,2.0,0.0,Punishment,,MostlyPunishment
8803,156637_fnca,3,2,Reward,4,5,2.0,0,534,14,3,0,3,0,3.0,2.0,1.0,Punishment,,MostlyPunishment
8804,156637_fnca,4,2,Punishment,5,5,3.0,0,496,13,1,1,0,0,3.0,2.0,0.0,Reward,,MostlyPunishment
8805,156637_fnca,5,2,Reward,6,5,3.0,0,496,13,2,2,0,0,3.0,3.0,0.0,Punishment,,MostlyPunishment
8806,156637_fnca,6,2,Punishment,7,5,3.0,0,335,13,3,3,0,0,2.0,3.0,1.0,Reward,,MostlyPunishment
8807,156637_fnca,7,2,Punishment,8,5,2.0,0,291,13,1,0,1,0,3.0,3.0,1.0,Punishment,,MostlyPunishment
8809,156637_fnca,10,2,Reward,10,5,2.0,0,680,13,1,0,1,0,2.0,,0.0,,,MostlyReward
8810,156637_fnca,11,2,Neutral,11,5,2.0,0,342,13,2,0,2,0,3.0,2.0,1.0,Reward,,MostlyReward
8811,156637_fnca,12,2,Reward,12,5,3.0,0,709,13,1,1,0,0,3.0,2.0,0.0,Neutral,,MostlyReward
8812,156637_fnca,13,2,Reward,13,5,3.0,0,445,13,2,2,0,0,3.0,3.0,0.0,Reward,,MostlyReward
8813,156637_fnca,14,2,Reward,14,5,3.0,0,912,14,3,3,0,0,3.0,3.0,0.0,Reward,,MostlyReward
8814,156637_fnca,15,2,Reward,15,5,3.0,0,341,14,4,4,0,0,3.0,3.0,0.0,Reward,,MostlyReward
8815,156637_fnca,16,2,Neutral,16,5,3.0,0,383,14,5,5,0,0,3.0,3.0,0.0,Reward,,MostlyReward
8817,156637_fnca,19,2,Punishment,18,5,2.0,0,903,13,1,0,1,0,2.0,,0.0,,,MostlyPunishment
8818,156637_fnca,20,2,Punishment,19,5,2.0,0,310,14,2,0,2,0,3.0,2.0,1.0,Punishment,,MostlyPunishment
8819,156637_fnca,21,2,Reward,20,5,3.0,0,537,13,1,1,0,0,2.0,2.0,1.0,Punishment,,MostlyPunishment
8820,156637_fnca,22,2,Punishment,21,5,2.0,0,297,13,1,0,1,0,3.0,3.0,1.0,Reward,,MostlyPunishment
8821,156637_fnca,23,2,Reward,22,5,3.0,0,351,13,1,1,0,0,2.0,2.0,1.0,Punishment,,MostlyPunishment
8822,156637_fnca,24,2,Punishment,23,5,2.0,0,344,13,1,0,1,0,2.0,3.0,0.0,Reward,,MostlyPunishment
8823,156637_fnca,25,2,Punishment,24,5,2.0,0,359,13,2,0,2,0,3.0,2.0,1.0,Punishment,,MostlyPunishment
8825,156637_fnca,28,2,Reward,26,5,3.0,0,802,14,2,2,0,0,3.0,,0.0,,MostlyReward,MostlyReward
8826,156637_fnca,29,2,Reward,27,5,3.0,0,347,13,3,3,0,0,2.0,3.0,1.0,Reward,MostlyReward,MostlyReward
8827,156637_fnca,30,2,Punishment,28,5,2.0,0,377,14,1,0,1,0,2.0,3.0,0.0,Reward,MostlyReward,MostlyReward
8828,156637_fnca,31,2,Reward,29,5,2.0,0,396,14,2,0,2,0,2.0,2.0,0.0,Punishment,MostlyReward,MostlyReward
8829,156637_fnca,32,2,Punishment,30,5,2.0,0,542,13,3,0,3,0,3.0,2.0,1.0,Reward,MostlyReward,MostlyReward
8830,156637_fnca,33,2,Reward,31,5,3.0,0,510,14,1,1,0,0,3.0,2.0,0.0,Punishment,MostlyReward,MostlyReward
8831,156637_fnca,34,2,Reward,32,5,3.0,0,452,13,2,2,0,0,2.0,3.0,1.0,Reward,MostlyReward,MostlyReward
