,HCPID,Trial,RunNumber,TrialType,RunTrialNumber,Block,CurrentResponse,QuestionMark.ACC,RT,QuestionMark.OnsetDelay,ConsecSameResp,ConsecLargerGuesses,ConsecSmallerGuesses,ConsecRTLess200,FutureResponse,PastResponse,ResponseSwitch,PreviousFeedback,BlockType,BlockTypeCoded
2177,113215_fnca,1,1,Reward,2,5,2.0,0,705,27,1,0,1,0,3.0,,1.0,,MostlyReward,MostlyReward
2178,113215_fnca,2,1,Reward,3,5,3.0,0,413,14,1,1,0,0,2.0,2.0,1.0,Reward,MostlyReward,MostlyReward
2179,113215_fnca,3,1,Punishment,4,5,2.0,0,578,14,1,0,1,0,2.0,3.0,0.0,Reward,MostlyReward,MostlyReward
2180,113215_fnca,4,1,Reward,5,5,2.0,0,383,14,2,0,2,0,3.0,2.0,1.0,Punishment,MostlyReward,MostlyReward
2181,113215_fnca,5,1,Reward,6,5,3.0,0,249,13,1,1,0,0,3.0,2.0,0.0,Reward,MostlyReward,MostlyReward
2182,113215_fnca,6,1,Reward,7,5,3.0,0,250,14,2,2,0,0,2.0,3.0,1.0,Reward,MostlyReward,MostlyReward
2183,113215_fnca,7,1,Neutral,8,5,2.0,0,450,14,1,0,1,0,2.0,3.0,0.0,Reward,MostlyReward,MostlyReward
2185,113215_fnca,10,1,Reward,10,5,2.0,0,731,13,3,0,3,0,3.0,,1.0,,MostlyPunishment,MostlyPunishment
2186,113215_fnca,11,1,Punishment,11,5,3.0,0,397,13,1,1,0,0,3.0,2.0,0.0,Reward,MostlyPunishment,MostlyPunishment
2187,113215_fnca,12,1,Punishment,12,5,3.0,0,247,13,2,2,0,0,3.0,3.0,0.0,Punishment,MostlyPunishment,MostlyPunishment
2188,113215_fnca,13,1,Punishment,13,5,3.0,0,769,13,3,3,0,0,3.0,3.0,0.0,Punishment,MostlyPunishment,MostlyPunishment
2189,113215_fnca,14,1,Neutral,14,5,3.0,0,696,13,4,4,0,0,3.0,3.0,0.0,Punishment,MostlyPunishment,MostlyPunishment
2190,113215_fnca,15,1,Punishment,15,5,3.0,0,352,13,5,5,0,0,2.0,3.0,1.0,Neutral,MostlyPunishment,MostlyPunishment
2191,113215_fnca,16,1,Punishment,16,5,2.0,0,298,13,1,0,1,0,2.0,3.0,0.0,Punishment,MostlyPunishment,MostlyPunishment
2193,113215_fnca,19,1,Punishment,18,5,2.0,0,793,14,3,0,3,0,2.0,,0.0,,MostlyPunishment,MostlyPunishment
2194,113215_fnca,20,1,Punishment,19,5,2.0,0,684,13,4,0,4,0,2.0,2.0,0.0,Punishment,MostlyPunishment,MostlyPunishment
2195,113215_fnca,21,1,Punishment,20,5,2.0,0,412,14,5,0,5,0,3.0,2.0,1.0,Punishment,MostlyPunishment,MostlyPunishment
2196,113215_fnca,22,1,Neutral,21,5,3.0,0,339,13,1,1,0,0,3.0,2.0,0.0,Punishment,MostlyPunishment,MostlyPunishment
2197,113215_fnca,23,1,Punishment,22,5,3.0,0,285,13,2,2,0,0,3.0,3.0,0.0,Neutral,MostlyPunishment,MostlyPunishment
2198,113215_fnca,24,1,Neutral,23,5,3.0,0,437,14,3,3,0,0,3.0,3.0,0.0,Punishment,MostlyPunishment,MostlyPunishment
2199,113215_fnca,25,1,Punishment,24,5,3.0,0,471,13,4,4,0,0,3.0,3.0,0.0,Neutral,MostlyPunishment,MostlyPunishment
2201,113215_fnca,28,1,Reward,26,5,3.0,0,484,13,6,6,0,0,2.0,,1.0,,MostlyReward,MostlyReward
2202,113215_fnca,29,1,Reward,27,5,2.0,0,375,13,1,0,1,0,2.0,3.0,0.0,Reward,MostlyReward,MostlyReward
2203,113215_fnca,30,1,Punishment,28,5,2.0,0,447,13,2,0,2,0,2.0,2.0,0.0,Reward,MostlyReward,MostlyReward
2204,113215_fnca,31,1,Reward,29,5,2.0,0,589,14,3,0,3,0,3.0,2.0,1.0,Punishment,MostlyReward,MostlyReward
2205,113215_fnca,32,1,Punishment,30,5,3.0,0,479,13,1,1,0,0,3.0,2.0,0.0,Reward,MostlyReward,MostlyReward
2206,113215_fnca,33,1,Reward,31,5,3.0,0,541,13,2,2,0,0,2.0,3.0,1.0,Punishment,MostlyReward,MostlyReward
2207,113215_fnca,34,1,Reward,32,5,2.0,0,509,14,1,0,1,0,3.0,3.0,1.0,Reward,MostlyReward,MostlyReward
2209,113215_fnca,1,2,Punishment,2,5,2.0,0,370,27,1,0,1,0,2.0,,0.0,,,MostlyPunishment
2210,113215_fnca,2,2,Punishment,3,5,2.0,0,368,14,2,0,2,0,2.0,2.0,0.0,Punishment,,MostlyPunishment
2211,113215_fnca,3,2,Reward,4,5,2.0,0,258,13,3,0,3,0,2.0,2.0,0.0,Punishment,,MostlyPunishment
2212,113215_fnca,4,2,Punishment,5,5,2.0,0,342,14,4,0,4,0,2.0,2.0,0.0,Reward,,MostlyPunishment
2213,113215_fnca,5,2,Reward,6,5,2.0,0,295,14,5,0,5,0,3.0,2.0,1.0,Punishment,,MostlyPunishment
2214,113215_fnca,6,2,Punishment,7,5,3.0,0,479,13,1,1,0,0,2.0,2.0,1.0,Reward,,MostlyPunishment
2215,113215_fnca,7,2,Punishment,8,5,2.0,0,528,13,1,0,1,0,3.0,3.0,1.0,Punishment,,MostlyPunishment
2217,113215_fnca,10,2,Reward,10,5,2.0,0,507,13,1,0,1,0,2.0,,0.0,,,MostlyReward
2218,113215_fnca,11,2,Neutral,11,5,2.0,0,259,13,2,0,2,0,2.0,2.0,0.0,Reward,,MostlyReward
2219,113215_fnca,12,2,Reward,12,5,2.0,0,275,14,3,0,3,0,2.0,2.0,0.0,Neutral,,MostlyReward
2220,113215_fnca,13,2,Reward,13,5,2.0,0,344,13,4,0,4,0,2.0,2.0,0.0,Reward,,MostlyReward
2221,113215_fnca,14,2,Reward,14,5,2.0,0,387,14,5,0,5,0,2.0,2.0,0.0,Reward,,MostlyReward
2222,113215_fnca,15,2,Reward,15,5,2.0,0,751,14,6,0,6,0,2.0,2.0,0.0,Reward,,MostlyReward
2223,113215_fnca,16,2,Neutral,16,5,2.0,0,441,14,7,0,7,0,2.0,2.0,0.0,Reward,,MostlyReward
2225,113215_fnca,19,2,Punishment,18,5,3.0,0,413,14,1,1,0,0,3.0,,0.0,,,MostlyPunishment
2226,113215_fnca,20,2,Punishment,19,5,3.0,0,273,13,2,2,0,0,3.0,3.0,0.0,Punishment,,MostlyPunishment
2227,113215_fnca,21,2,Reward,20,5,3.0,0,260,13,3,3,0,0,3.0,3.0,0.0,Punishment,,MostlyPunishment
2228,113215_fnca,22,2,Punishment,21,5,3.0,0,402,14,4,4,0,0,3.0,3.0,0.0,Reward,,MostlyPunishment
2229,113215_fnca,23,2,Reward,22,5,3.0,0,314,13,5,5,0,0,3.0,3.0,0.0,Punishment,,MostlyPunishment
2233,113215_fnca,28,2,Reward,26,5,2.0,0,505,13,1,0,1,0,3.0,,1.0,,MostlyReward,MostlyReward
2234,113215_fnca,29,2,Reward,27,5,3.0,0,276,13,1,1,0,0,3.0,2.0,0.0,Reward,MostlyReward,MostlyReward
2235,113215_fnca,30,2,Punishment,28,5,3.0,0,490,14,2,2,0,0,3.0,3.0,0.0,Reward,MostlyReward,MostlyReward
2236,113215_fnca,31,2,Reward,29,5,3.0,0,394,14,3,3,0,0,2.0,3.0,1.0,Punishment,MostlyReward,MostlyReward
2237,113215_fnca,32,2,Punishment,30,5,2.0,0,253,13,1,0,1,0,2.0,3.0,0.0,Reward,MostlyReward,MostlyReward
2238,113215_fnca,33,2,Reward,31,5,2.0,0,232,13,2,0,2,0,3.0,2.0,1.0,Punishment,MostlyReward,MostlyReward
2239,113215_fnca,34,2,Reward,32,5,3.0,0,507,13,1,1,0,0,2.0,2.0,1.0,Reward,MostlyReward,MostlyReward
