,HCPID,Trial,RunNumber,TrialType,RunTrialNumber,Block,CurrentResponse,QuestionMark.ACC,RT,QuestionMark.OnsetDelay,ConsecSameResp,ConsecLargerGuesses,ConsecSmallerGuesses,ConsecRTLess200,FutureResponse,PastResponse,ResponseSwitch,PreviousFeedback,BlockType,BlockTypeCoded
2433,114419_fnca,1,1,Reward,2,5,3.0,0,465,40,1,1,0,0,2.0,,1.0,,MostlyReward,MostlyReward
2434,114419_fnca,2,1,Reward,3,5,2.0,0,710,13,1,0,1,0,2.0,3.0,0.0,Reward,MostlyReward,MostlyReward
2435,114419_fnca,3,1,Punishment,4,5,2.0,0,639,14,2,0,2,0,3.0,2.0,1.0,Reward,MostlyReward,MostlyReward
2436,114419_fnca,4,1,Reward,5,5,3.0,0,230,13,1,1,0,0,3.0,2.0,0.0,Punishment,MostlyReward,MostlyReward
2437,114419_fnca,5,1,Reward,6,5,3.0,0,366,13,2,2,0,0,3.0,3.0,0.0,Reward,MostlyReward,MostlyReward
2438,114419_fnca,6,1,Reward,7,5,3.0,0,237,14,3,3,0,0,2.0,3.0,1.0,Reward,MostlyReward,MostlyReward
2439,114419_fnca,7,1,Neutral,8,5,2.0,0,328,13,1,0,1,0,2.0,3.0,0.0,Reward,MostlyReward,MostlyReward
2441,114419_fnca,10,1,Reward,10,5,3.0,0,532,14,1,1,0,0,2.0,,1.0,,MostlyPunishment,MostlyPunishment
2442,114419_fnca,11,1,Punishment,11,5,2.0,0,289,14,1,0,1,0,2.0,3.0,0.0,Reward,MostlyPunishment,MostlyPunishment
2443,114419_fnca,12,1,Punishment,12,5,2.0,0,352,13,2,0,2,0,3.0,2.0,1.0,Punishment,MostlyPunishment,MostlyPunishment
2444,114419_fnca,13,1,Punishment,13,5,3.0,0,255,13,1,1,0,0,2.0,2.0,1.0,Punishment,MostlyPunishment,MostlyPunishment
2445,114419_fnca,14,1,Neutral,14,5,2.0,0,964,13,1,0,1,0,2.0,3.0,0.0,Punishment,MostlyPunishment,MostlyPunishment
2446,114419_fnca,15,1,Punishment,15,5,2.0,0,362,14,2,0,2,0,2.0,2.0,0.0,Neutral,MostlyPunishment,MostlyPunishment
2447,114419_fnca,16,1,Punishment,16,5,2.0,0,269,14,3,0,3,0,2.0,2.0,0.0,Punishment,MostlyPunishment,MostlyPunishment
2449,114419_fnca,19,1,Punishment,18,5,3.0,0,456,13,1,1,0,0,2.0,,1.0,,MostlyPunishment,MostlyPunishment
2450,114419_fnca,20,1,Punishment,19,5,2.0,0,261,13,1,0,1,0,3.0,3.0,1.0,Punishment,MostlyPunishment,MostlyPunishment
2451,114419_fnca,21,1,Punishment,20,5,3.0,0,360,13,1,1,0,0,3.0,2.0,0.0,Punishment,MostlyPunishment,MostlyPunishment
2452,114419_fnca,22,1,Neutral,21,5,3.0,0,256,13,2,2,0,0,2.0,3.0,1.0,Punishment,MostlyPunishment,MostlyPunishment
2453,114419_fnca,23,1,Punishment,22,5,2.0,0,259,13,1,0,1,0,2.0,3.0,0.0,Neutral,MostlyPunishment,MostlyPunishment
2454,114419_fnca,24,1,Neutral,23,5,2.0,0,275,13,2,0,2,0,2.0,2.0,0.0,Punishment,MostlyPunishment,MostlyPunishment
2455,114419_fnca,25,1,Punishment,24,5,2.0,0,332,14,3,0,3,0,3.0,2.0,1.0,Neutral,MostlyPunishment,MostlyPunishment
2457,114419_fnca,28,1,Reward,26,5,2.0,0,510,13,1,0,1,0,2.0,,0.0,,MostlyReward,MostlyReward
2458,114419_fnca,29,1,Reward,27,5,2.0,0,300,13,2,0,2,0,2.0,2.0,0.0,Reward,MostlyReward,MostlyReward
2459,114419_fnca,30,1,Punishment,28,5,2.0,0,737,13,3,0,3,0,3.0,2.0,1.0,Reward,MostlyReward,MostlyReward
2460,114419_fnca,31,1,Reward,29,5,3.0,0,487,14,1,1,0,0,2.0,2.0,1.0,Punishment,MostlyReward,MostlyReward
2461,114419_fnca,32,1,Punishment,30,5,2.0,0,307,14,1,0,1,0,2.0,3.0,0.0,Reward,MostlyReward,MostlyReward
2462,114419_fnca,33,1,Reward,31,5,2.0,0,255,13,2,0,2,0,3.0,2.0,1.0,Punishment,MostlyReward,MostlyReward
2463,114419_fnca,34,1,Reward,32,5,3.0,0,242,13,1,1,0,0,2.0,2.0,1.0,Reward,MostlyReward,MostlyReward
2465,114419_fnca,1,2,Punishment,2,5,3.0,0,556,27,1,1,0,0,3.0,,0.0,,,MostlyPunishment
2466,114419_fnca,2,2,Punishment,3,5,3.0,0,355,13,2,2,0,0,2.0,3.0,1.0,Punishment,,MostlyPunishment
2467,114419_fnca,3,2,Reward,4,5,2.0,0,240,14,1,0,1,0,3.0,3.0,1.0,Punishment,,MostlyPunishment
2468,114419_fnca,4,2,Punishment,5,5,3.0,0,270,14,1,1,0,0,2.0,2.0,1.0,Reward,,MostlyPunishment
2469,114419_fnca,5,2,Reward,6,5,2.0,0,619,13,1,0,1,0,2.0,3.0,0.0,Punishment,,MostlyPunishment
2470,114419_fnca,6,2,Punishment,7,5,2.0,0,260,13,2,0,2,0,3.0,2.0,1.0,Reward,,MostlyPunishment
2471,114419_fnca,7,2,Punishment,8,5,3.0,0,293,13,1,1,0,0,2.0,2.0,1.0,Punishment,,MostlyPunishment
2473,114419_fnca,10,2,Reward,10,5,3.0,0,843,14,1,1,0,0,3.0,,0.0,,,MostlyReward
2474,114419_fnca,11,2,Neutral,11,5,3.0,0,287,13,2,2,0,0,2.0,3.0,1.0,Reward,,MostlyReward
2475,114419_fnca,12,2,Reward,12,5,2.0,0,293,13,1,0,1,0,2.0,3.0,0.0,Neutral,,MostlyReward
2476,114419_fnca,13,2,Reward,13,5,2.0,0,235,13,2,0,2,0,3.0,2.0,1.0,Reward,,MostlyReward
2477,114419_fnca,14,2,Reward,14,5,3.0,0,255,14,1,1,0,0,3.0,2.0,0.0,Reward,,MostlyReward
2478,114419_fnca,15,2,Reward,15,5,3.0,0,352,13,2,2,0,0,2.0,3.0,1.0,Reward,,MostlyReward
2479,114419_fnca,16,2,Neutral,16,5,2.0,0,327,13,1,0,1,0,2.0,3.0,0.0,Reward,,MostlyReward
2481,114419_fnca,19,2,Punishment,18,5,3.0,0,534,13,1,1,0,0,2.0,,1.0,,,MostlyPunishment
2482,114419_fnca,20,2,Punishment,19,5,2.0,0,251,13,1,0,1,0,2.0,3.0,0.0,Punishment,,MostlyPunishment
2483,114419_fnca,21,2,Reward,20,5,2.0,0,330,13,2,0,2,0,3.0,2.0,1.0,Punishment,,MostlyPunishment
2484,114419_fnca,22,2,Punishment,21,5,3.0,0,258,13,1,1,0,0,3.0,2.0,0.0,Reward,,MostlyPunishment
2485,114419_fnca,23,2,Reward,22,5,3.0,0,252,13,2,2,0,0,3.0,3.0,0.0,Punishment,,MostlyPunishment
2486,114419_fnca,24,2,Punishment,23,5,3.0,0,496,13,3,3,0,0,2.0,3.0,1.0,Reward,,MostlyPunishment
2487,114419_fnca,25,2,Punishment,24,5,2.0,0,277,14,1,0,1,0,3.0,3.0,1.0,Punishment,,MostlyPunishment
2489,114419_fnca,28,2,Reward,26,5,3.0,0,551,13,2,2,0,0,3.0,,0.0,,MostlyReward,MostlyReward
2490,114419_fnca,29,2,Reward,27,5,3.0,0,245,14,3,3,0,0,2.0,3.0,1.0,Reward,MostlyReward,MostlyReward
2491,114419_fnca,30,2,Punishment,28,5,2.0,0,282,14,1,0,1,0,2.0,3.0,0.0,Reward,MostlyReward,MostlyReward
2492,114419_fnca,31,2,Reward,29,5,2.0,0,304,13,2,0,2,0,3.0,2.0,1.0,Punishment,MostlyReward,MostlyReward
2493,114419_fnca,32,2,Punishment,30,5,3.0,0,295,13,1,1,0,0,3.0,2.0,0.0,Reward,MostlyReward,MostlyReward
2494,114419_fnca,33,2,Reward,31,5,3.0,0,289,13,2,2,0,0,2.0,3.0,1.0,Punishment,MostlyReward,MostlyReward
2495,114419_fnca,34,2,Reward,32,5,2.0,0,393,14,1,0,1,0,2.0,3.0,0.0,Reward,MostlyReward,MostlyReward
