,HCPID,Trial,RunNumber,TrialType,RunTrialNumber,Block,CurrentResponse,QuestionMark.ACC,RT,QuestionMark.OnsetDelay,ConsecSameResp,ConsecLargerGuesses,ConsecSmallerGuesses,ConsecRTLess200,FutureResponse,PastResponse,ResponseSwitch,PreviousFeedback,BlockType,BlockTypeCoded
3201,120515_fnca,1,1,Reward,2,5,3.0,0,747,27,1,1,0,0,3.0,,0.0,,MostlyReward,MostlyReward
3202,120515_fnca,2,1,Reward,3,5,3.0,0,1440,14,2,2,0,0,2.0,3.0,1.0,Reward,MostlyReward,MostlyReward
3203,120515_fnca,3,1,Punishment,4,5,2.0,0,321,14,1,0,1,0,3.0,3.0,1.0,Reward,MostlyReward,MostlyReward
3204,120515_fnca,4,1,Reward,5,5,3.0,0,337,13,1,1,0,0,3.0,2.0,0.0,Punishment,MostlyReward,MostlyReward
3205,120515_fnca,5,1,Reward,6,5,3.0,0,589,14,2,2,0,0,2.0,3.0,1.0,Reward,MostlyReward,MostlyReward
3206,120515_fnca,6,1,Reward,7,5,2.0,0,520,13,1,0,1,0,2.0,3.0,0.0,Reward,MostlyReward,MostlyReward
3207,120515_fnca,7,1,Neutral,8,5,2.0,0,306,13,2,0,2,0,2.0,2.0,0.0,Reward,MostlyReward,MostlyReward
3209,120515_fnca,10,1,Reward,10,5,3.0,0,872,13,1,1,0,0,2.0,,1.0,,MostlyPunishment,MostlyPunishment
3210,120515_fnca,11,1,Punishment,11,5,2.0,0,437,14,1,0,1,0,2.0,3.0,0.0,Reward,MostlyPunishment,MostlyPunishment
3211,120515_fnca,12,1,Punishment,12,5,2.0,0,580,14,2,0,2,0,3.0,2.0,1.0,Punishment,MostlyPunishment,MostlyPunishment
3212,120515_fnca,13,1,Punishment,13,5,3.0,0,1207,13,1,1,0,0,2.0,2.0,1.0,Punishment,MostlyPunishment,MostlyPunishment
3213,120515_fnca,14,1,Neutral,14,5,2.0,0,447,14,1,0,1,0,2.0,3.0,0.0,Punishment,MostlyPunishment,MostlyPunishment
3214,120515_fnca,15,1,Punishment,15,5,2.0,0,471,13,2,0,2,0,3.0,2.0,1.0,Neutral,MostlyPunishment,MostlyPunishment
3215,120515_fnca,16,1,Punishment,16,5,3.0,0,1051,13,1,1,0,0,3.0,2.0,0.0,Punishment,MostlyPunishment,MostlyPunishment
3217,120515_fnca,19,1,Punishment,18,5,2.0,0,778,14,1,0,1,0,3.0,,1.0,,MostlyPunishment,MostlyPunishment
3218,120515_fnca,20,1,Punishment,19,5,3.0,0,413,13,1,1,0,0,3.0,2.0,0.0,Punishment,MostlyPunishment,MostlyPunishment
3219,120515_fnca,21,1,Punishment,20,5,3.0,0,364,14,2,2,0,0,2.0,3.0,1.0,Punishment,MostlyPunishment,MostlyPunishment
3220,120515_fnca,22,1,Neutral,21,5,2.0,0,402,14,1,0,1,0,2.0,3.0,0.0,Punishment,MostlyPunishment,MostlyPunishment
3221,120515_fnca,23,1,Punishment,22,5,2.0,0,493,13,2,0,2,0,3.0,2.0,1.0,Neutral,MostlyPunishment,MostlyPunishment
3222,120515_fnca,24,1,Neutral,23,5,3.0,0,893,13,1,1,0,0,3.0,2.0,0.0,Punishment,MostlyPunishment,MostlyPunishment
3223,120515_fnca,25,1,Punishment,24,5,3.0,0,468,14,2,2,0,0,3.0,3.0,0.0,Neutral,MostlyPunishment,MostlyPunishment
3225,120515_fnca,28,1,Reward,26,5,2.0,0,789,13,1,0,1,0,2.0,,0.0,,MostlyReward,MostlyReward
3226,120515_fnca,29,1,Reward,27,5,2.0,0,705,13,2,0,2,0,3.0,2.0,1.0,Reward,MostlyReward,MostlyReward
3227,120515_fnca,30,1,Punishment,28,5,3.0,0,837,13,1,1,0,0,2.0,2.0,1.0,Reward,MostlyReward,MostlyReward
3228,120515_fnca,31,1,Reward,29,5,2.0,0,706,14,1,0,1,0,2.0,3.0,0.0,Punishment,MostlyReward,MostlyReward
3229,120515_fnca,32,1,Punishment,30,5,2.0,0,656,14,2,0,2,0,3.0,2.0,1.0,Reward,MostlyReward,MostlyReward
3230,120515_fnca,33,1,Reward,31,5,3.0,0,385,13,1,1,0,0,3.0,2.0,0.0,Punishment,MostlyReward,MostlyReward
3231,120515_fnca,34,1,Reward,32,5,3.0,0,442,13,2,2,0,0,2.0,3.0,1.0,Reward,MostlyReward,MostlyReward
3233,120515_fnca,1,2,Punishment,2,5,2.0,0,363,27,1,0,1,0,3.0,,1.0,,,MostlyPunishment
3234,120515_fnca,2,2,Punishment,3,5,3.0,0,528,13,1,1,0,0,3.0,2.0,0.0,Punishment,,MostlyPunishment
3235,120515_fnca,3,2,Reward,4,5,3.0,0,370,14,2,2,0,0,3.0,3.0,0.0,Punishment,,MostlyPunishment
3236,120515_fnca,4,2,Punishment,5,5,3.0,0,420,14,3,3,0,0,3.0,3.0,0.0,Reward,,MostlyPunishment
3237,120515_fnca,5,2,Reward,6,5,3.0,0,330,13,4,4,0,0,2.0,3.0,1.0,Punishment,,MostlyPunishment
3238,120515_fnca,6,2,Punishment,7,5,2.0,0,341,13,1,0,1,0,3.0,3.0,1.0,Reward,,MostlyPunishment
3239,120515_fnca,7,2,Punishment,8,5,3.0,0,618,13,1,1,0,0,3.0,2.0,0.0,Punishment,,MostlyPunishment
3241,120515_fnca,10,2,Reward,10,5,3.0,0,532,14,3,3,0,0,3.0,,0.0,,,MostlyReward
3242,120515_fnca,11,2,Neutral,11,5,3.0,0,410,13,4,4,0,0,2.0,3.0,1.0,Reward,,MostlyReward
3243,120515_fnca,12,2,Reward,12,5,2.0,0,297,13,1,0,1,0,2.0,3.0,0.0,Neutral,,MostlyReward
3244,120515_fnca,13,2,Reward,13,5,2.0,0,557,14,2,0,2,0,3.0,2.0,1.0,Reward,,MostlyReward
3245,120515_fnca,14,2,Reward,14,5,3.0,0,429,14,1,1,0,0,3.0,2.0,0.0,Reward,,MostlyReward
3246,120515_fnca,15,2,Reward,15,5,3.0,0,660,13,2,2,0,0,2.0,3.0,1.0,Reward,,MostlyReward
3247,120515_fnca,16,2,Neutral,16,5,2.0,0,1147,13,1,0,1,0,3.0,3.0,1.0,Reward,,MostlyReward
3249,120515_fnca,19,2,Punishment,18,5,2.0,0,453,13,1,0,1,0,2.0,,0.0,,,MostlyPunishment
3250,120515_fnca,20,2,Punishment,19,5,2.0,0,497,13,2,0,2,0,3.0,2.0,1.0,Punishment,,MostlyPunishment
3251,120515_fnca,21,2,Reward,20,5,3.0,0,429,14,1,1,0,0,2.0,2.0,1.0,Punishment,,MostlyPunishment
3252,120515_fnca,22,2,Punishment,21,5,2.0,0,337,14,1,0,1,0,3.0,3.0,1.0,Reward,,MostlyPunishment
3253,120515_fnca,23,2,Reward,22,5,3.0,0,481,14,1,1,0,0,2.0,2.0,1.0,Punishment,,MostlyPunishment
3254,120515_fnca,24,2,Punishment,23,5,2.0,0,364,14,1,0,1,0,3.0,3.0,1.0,Reward,,MostlyPunishment
3255,120515_fnca,25,2,Punishment,24,5,3.0,0,473,13,1,1,0,0,2.0,2.0,1.0,Punishment,,MostlyPunishment
3257,120515_fnca,28,2,Reward,26,5,3.0,0,1213,13,1,1,0,0,3.0,,0.0,,MostlyReward,MostlyReward
3258,120515_fnca,29,2,Reward,27,5,3.0,0,451,13,2,2,0,0,3.0,3.0,0.0,Reward,MostlyReward,MostlyReward
3259,120515_fnca,30,2,Punishment,28,5,3.0,0,438,14,3,3,0,0,3.0,3.0,0.0,Reward,MostlyReward,MostlyReward
3260,120515_fnca,31,2,Reward,29,5,3.0,0,498,14,4,4,0,0,2.0,3.0,1.0,Punishment,MostlyReward,MostlyReward
3261,120515_fnca,32,2,Punishment,30,5,2.0,0,284,14,1,0,1,0,2.0,3.0,0.0,Reward,MostlyReward,MostlyReward
3262,120515_fnca,33,2,Reward,31,5,2.0,0,454,13,2,0,2,0,3.0,2.0,1.0,Punishment,MostlyReward,MostlyReward
3263,120515_fnca,34,2,Reward,32,5,3.0,0,365,13,1,1,0,0,3.0,2.0,0.0,Reward,MostlyReward,MostlyReward
