,HCPID,Trial,RunNumber,TrialType,RunTrialNumber,Block,CurrentResponse,QuestionMark.ACC,RT,QuestionMark.OnsetDelay,ConsecSameResp,ConsecLargerGuesses,ConsecSmallerGuesses,ConsecRTLess200,FutureResponse,PastResponse,ResponseSwitch,PreviousFeedback,BlockType,BlockTypeCoded
7041,147737_fnca,1,1,Reward,2,5,2.0,0,367,27,1,0,1,0,3.0,,1.0,,MostlyReward,MostlyReward
7042,147737_fnca,2,1,Reward,3,5,3.0,0,186,14,1,1,0,1,3.0,2.0,0.0,Reward,MostlyReward,MostlyReward
7043,147737_fnca,3,1,Punishment,4,5,3.0,0,666,13,2,2,0,0,2.0,3.0,1.0,Reward,MostlyReward,MostlyReward
7044,147737_fnca,4,1,Reward,5,5,2.0,0,318,13,1,0,1,0,3.0,3.0,1.0,Punishment,MostlyReward,MostlyReward
7045,147737_fnca,5,1,Reward,6,5,3.0,0,267,13,1,1,0,0,3.0,2.0,0.0,Reward,MostlyReward,MostlyReward
7046,147737_fnca,6,1,Reward,7,5,3.0,0,412,14,2,2,0,0,2.0,3.0,1.0,Reward,MostlyReward,MostlyReward
7047,147737_fnca,7,1,Neutral,8,5,2.0,0,312,14,1,0,1,0,2.0,3.0,0.0,Reward,MostlyReward,MostlyReward
7049,147737_fnca,10,1,Reward,10,5,3.0,0,819,13,1,1,0,0,3.0,,0.0,,MostlyPunishment,MostlyPunishment
7050,147737_fnca,11,1,Punishment,11,5,3.0,0,329,13,2,2,0,0,3.0,3.0,0.0,Reward,MostlyPunishment,MostlyPunishment
7051,147737_fnca,12,1,Punishment,12,5,3.0,0,566,14,3,3,0,0,3.0,3.0,0.0,Punishment,MostlyPunishment,MostlyPunishment
7052,147737_fnca,13,1,Punishment,13,5,3.0,0,550,14,4,4,0,0,2.0,3.0,1.0,Punishment,MostlyPunishment,MostlyPunishment
7053,147737_fnca,14,1,Neutral,14,5,2.0,0,293,13,1,0,1,0,2.0,3.0,0.0,Punishment,MostlyPunishment,MostlyPunishment
7054,147737_fnca,15,1,Punishment,15,5,2.0,0,221,13,2,0,2,0,3.0,2.0,1.0,Neutral,MostlyPunishment,MostlyPunishment
7055,147737_fnca,16,1,Punishment,16,5,3.0,0,1072,13,1,1,0,0,2.0,2.0,1.0,Punishment,MostlyPunishment,MostlyPunishment
7057,147737_fnca,19,1,Punishment,18,5,2.0,0,592,14,2,0,2,0,3.0,,1.0,,MostlyPunishment,MostlyPunishment
7058,147737_fnca,20,1,Punishment,19,5,3.0,0,357,14,1,1,0,0,3.0,2.0,0.0,Punishment,MostlyPunishment,MostlyPunishment
7059,147737_fnca,21,1,Punishment,20,5,3.0,0,300,13,2,2,0,0,2.0,3.0,1.0,Punishment,MostlyPunishment,MostlyPunishment
7060,147737_fnca,22,1,Neutral,21,5,2.0,0,317,13,1,0,1,0,2.0,3.0,0.0,Punishment,MostlyPunishment,MostlyPunishment
7061,147737_fnca,23,1,Punishment,22,5,2.0,0,255,13,2,0,2,0,2.0,2.0,0.0,Neutral,MostlyPunishment,MostlyPunishment
7062,147737_fnca,24,1,Neutral,23,5,2.0,0,264,13,3,0,3,0,2.0,2.0,0.0,Punishment,MostlyPunishment,MostlyPunishment
7063,147737_fnca,25,1,Punishment,24,5,2.0,0,230,14,4,0,4,0,3.0,2.0,1.0,Neutral,MostlyPunishment,MostlyPunishment
7066,147737_fnca,29,1,Reward,27,5,3.0,0,356,14,2,2,0,0,3.0,,0.0,Reward,MostlyReward,MostlyReward
7067,147737_fnca,30,1,Punishment,28,5,3.0,0,239,13,3,3,0,0,2.0,3.0,1.0,Reward,MostlyReward,MostlyReward
7068,147737_fnca,31,1,Reward,29,5,2.0,0,249,14,1,0,1,0,3.0,3.0,1.0,Punishment,MostlyReward,MostlyReward
7069,147737_fnca,32,1,Punishment,30,5,3.0,0,269,14,1,1,0,0,3.0,2.0,0.0,Reward,MostlyReward,MostlyReward
7070,147737_fnca,33,1,Reward,31,5,3.0,0,377,14,2,2,0,0,2.0,3.0,1.0,Punishment,MostlyReward,MostlyReward
7071,147737_fnca,34,1,Reward,32,5,2.0,0,236,14,1,0,1,0,3.0,3.0,1.0,Reward,MostlyReward,MostlyReward
7073,147737_fnca,1,2,Punishment,2,5,3.0,0,429,26,1,1,0,0,3.0,,0.0,,,MostlyPunishment
7074,147737_fnca,2,2,Punishment,3,5,3.0,0,278,14,2,2,0,0,3.0,3.0,0.0,Punishment,,MostlyPunishment
7075,147737_fnca,3,2,Reward,4,5,3.0,0,347,13,3,3,0,0,3.0,3.0,0.0,Punishment,,MostlyPunishment
7076,147737_fnca,4,2,Punishment,5,5,3.0,0,265,13,4,4,0,0,2.0,3.0,1.0,Reward,,MostlyPunishment
7077,147737_fnca,5,2,Reward,6,5,2.0,0,259,13,1,0,1,0,2.0,3.0,0.0,Punishment,,MostlyPunishment
7078,147737_fnca,6,2,Punishment,7,5,2.0,0,235,13,2,0,2,0,3.0,2.0,1.0,Reward,,MostlyPunishment
7079,147737_fnca,7,2,Punishment,8,5,3.0,0,290,13,1,1,0,0,3.0,2.0,0.0,Punishment,,MostlyPunishment
7081,147737_fnca,10,2,Reward,10,5,2.0,0,297,13,1,0,1,0,2.0,,0.0,,,MostlyReward
7082,147737_fnca,11,2,Neutral,11,5,2.0,0,227,13,2,0,2,0,3.0,2.0,1.0,Reward,,MostlyReward
7083,147737_fnca,12,2,Reward,12,5,3.0,0,238,13,1,1,0,0,2.0,2.0,1.0,Neutral,,MostlyReward
7084,147737_fnca,13,2,Reward,13,5,2.0,0,210,14,1,0,1,0,3.0,3.0,1.0,Reward,,MostlyReward
7085,147737_fnca,14,2,Reward,14,5,3.0,0,248,13,1,1,0,0,2.0,2.0,1.0,Reward,,MostlyReward
7086,147737_fnca,15,2,Reward,15,5,2.0,0,361,14,1,0,1,0,3.0,3.0,1.0,Reward,,MostlyReward
7087,147737_fnca,16,2,Neutral,16,5,3.0,0,265,13,1,1,0,0,3.0,2.0,0.0,Reward,,MostlyReward
7089,147737_fnca,19,2,Punishment,18,5,2.0,0,933,13,1,0,1,0,2.0,,0.0,,,MostlyPunishment
7090,147737_fnca,20,2,Punishment,19,5,2.0,0,437,14,2,0,2,0,3.0,2.0,1.0,Punishment,,MostlyPunishment
7091,147737_fnca,21,2,Reward,20,5,3.0,0,324,14,1,1,0,0,3.0,2.0,0.0,Punishment,,MostlyPunishment
7092,147737_fnca,22,2,Punishment,21,5,3.0,0,477,13,2,2,0,0,2.0,3.0,1.0,Reward,,MostlyPunishment
7093,147737_fnca,23,2,Reward,22,5,2.0,0,372,13,1,0,1,0,2.0,3.0,0.0,Punishment,,MostlyPunishment
7094,147737_fnca,24,2,Punishment,23,5,2.0,0,204,13,2,0,2,0,3.0,2.0,1.0,Reward,,MostlyPunishment
7095,147737_fnca,25,2,Punishment,24,5,3.0,0,245,13,1,1,0,0,3.0,2.0,0.0,Punishment,,MostlyPunishment
7097,147737_fnca,28,2,Reward,26,5,2.0,0,513,13,1,0,1,0,2.0,,0.0,,MostlyReward,MostlyReward
7098,147737_fnca,29,2,Reward,27,5,2.0,0,290,14,2,0,2,0,3.0,2.0,1.0,Reward,MostlyReward,MostlyReward
7099,147737_fnca,30,2,Punishment,28,5,3.0,0,264,13,1,1,0,0,3.0,2.0,0.0,Reward,MostlyReward,MostlyReward
7100,147737_fnca,31,2,Reward,29,5,3.0,0,543,14,2,2,0,0,3.0,3.0,0.0,Punishment,MostlyReward,MostlyReward
7101,147737_fnca,32,2,Punishment,30,5,3.0,0,429,13,3,3,0,0,2.0,3.0,1.0,Reward,MostlyReward,MostlyReward
7102,147737_fnca,33,2,Reward,31,5,2.0,0,257,13,1,0,1,0,2.0,3.0,0.0,Punishment,MostlyReward,MostlyReward
7103,147737_fnca,34,2,Reward,32,5,2.0,0,571,13,2,0,2,0,2.0,2.0,0.0,Reward,MostlyReward,MostlyReward
