,HCPID,Trial,RunNumber,TrialType,RunTrialNumber,Block,CurrentResponse,QuestionMark.ACC,RT,QuestionMark.OnsetDelay,ConsecSameResp,ConsecLargerGuesses,ConsecSmallerGuesses,ConsecRTLess200,FutureResponse,PastResponse,ResponseSwitch,PreviousFeedback,BlockType,BlockTypeCoded
4289,128329_fnca,1,1,Reward,2,5,2.0,0,712,27,1,0,1,0,2.0,,0.0,,MostlyReward,MostlyReward
4290,128329_fnca,2,1,Reward,3,5,2.0,0,608,14,2,0,2,0,3.0,2.0,1.0,Reward,MostlyReward,MostlyReward
4291,128329_fnca,3,1,Punishment,4,5,3.0,0,541,13,1,1,0,0,3.0,2.0,0.0,Reward,MostlyReward,MostlyReward
4292,128329_fnca,4,1,Reward,5,5,3.0,0,718,13,2,2,0,0,3.0,3.0,0.0,Punishment,MostlyReward,MostlyReward
4293,128329_fnca,5,1,Reward,6,5,3.0,0,534,14,3,3,0,0,3.0,3.0,0.0,Reward,MostlyReward,MostlyReward
4294,128329_fnca,6,1,Reward,7,5,3.0,0,471,13,4,4,0,0,2.0,3.0,1.0,Reward,MostlyReward,MostlyReward
4295,128329_fnca,7,1,Neutral,8,5,2.0,0,513,13,1,0,1,0,3.0,3.0,1.0,Reward,MostlyReward,MostlyReward
4297,128329_fnca,10,1,Reward,10,5,2.0,0,617,13,1,0,1,0,3.0,,1.0,,MostlyPunishment,MostlyPunishment
4298,128329_fnca,11,1,Punishment,11,5,3.0,0,349,13,1,1,0,0,3.0,2.0,0.0,Reward,MostlyPunishment,MostlyPunishment
4299,128329_fnca,12,1,Punishment,12,5,3.0,0,683,13,2,2,0,0,2.0,3.0,1.0,Punishment,MostlyPunishment,MostlyPunishment
4300,128329_fnca,13,1,Punishment,13,5,2.0,0,530,14,1,0,1,0,2.0,3.0,0.0,Punishment,MostlyPunishment,MostlyPunishment
4301,128329_fnca,14,1,Neutral,14,5,2.0,0,769,14,2,0,2,0,3.0,2.0,1.0,Punishment,MostlyPunishment,MostlyPunishment
4302,128329_fnca,15,1,Punishment,15,5,3.0,0,748,13,1,1,0,0,3.0,2.0,0.0,Neutral,MostlyPunishment,MostlyPunishment
4303,128329_fnca,16,1,Punishment,16,5,3.0,0,706,13,2,2,0,0,2.0,3.0,1.0,Punishment,MostlyPunishment,MostlyPunishment
4305,128329_fnca,19,1,Punishment,18,5,2.0,0,677,14,2,0,2,0,3.0,,1.0,,MostlyPunishment,MostlyPunishment
4306,128329_fnca,20,1,Punishment,19,5,3.0,0,354,13,1,1,0,0,3.0,2.0,0.0,Punishment,MostlyPunishment,MostlyPunishment
4307,128329_fnca,21,1,Punishment,20,5,3.0,0,481,14,2,2,0,0,2.0,3.0,1.0,Punishment,MostlyPunishment,MostlyPunishment
4308,128329_fnca,22,1,Neutral,21,5,2.0,0,1039,13,1,0,1,0,3.0,3.0,1.0,Punishment,MostlyPunishment,MostlyPunishment
4309,128329_fnca,23,1,Punishment,22,5,3.0,0,473,13,1,1,0,0,2.0,2.0,1.0,Neutral,MostlyPunishment,MostlyPunishment
4310,128329_fnca,24,1,Neutral,23,5,2.0,0,257,13,1,0,1,0,3.0,3.0,1.0,Punishment,MostlyPunishment,MostlyPunishment
4311,128329_fnca,25,1,Punishment,24,5,3.0,0,684,13,1,1,0,0,2.0,2.0,1.0,Neutral,MostlyPunishment,MostlyPunishment
4313,128329_fnca,28,1,Reward,26,5,2.0,0,970,14,2,0,2,0,2.0,,0.0,,MostlyReward,MostlyReward
4314,128329_fnca,29,1,Reward,27,5,2.0,0,415,13,3,0,3,0,2.0,2.0,0.0,Reward,MostlyReward,MostlyReward
4315,128329_fnca,30,1,Punishment,28,5,2.0,0,389,13,4,0,4,0,3.0,2.0,1.0,Reward,MostlyReward,MostlyReward
4316,128329_fnca,31,1,Reward,29,5,3.0,0,112,13,1,1,0,1,3.0,2.0,0.0,Punishment,MostlyReward,MostlyReward
4317,128329_fnca,32,1,Punishment,30,5,3.0,0,413,13,2,2,0,0,3.0,3.0,0.0,Reward,MostlyReward,MostlyReward
4318,128329_fnca,33,1,Reward,31,5,3.0,0,938,13,3,3,0,0,2.0,3.0,1.0,Punishment,MostlyReward,MostlyReward
4319,128329_fnca,34,1,Reward,32,5,2.0,0,542,13,1,0,1,0,2.0,3.0,0.0,Reward,MostlyReward,MostlyReward
4321,128329_fnca,1,2,Punishment,2,5,2.0,0,418,27,1,0,1,0,3.0,,1.0,,,MostlyPunishment
4322,128329_fnca,2,2,Punishment,3,5,3.0,0,323,13,1,1,0,0,2.0,2.0,1.0,Punishment,,MostlyPunishment
4323,128329_fnca,3,2,Reward,4,5,2.0,0,388,14,1,0,1,0,3.0,3.0,1.0,Punishment,,MostlyPunishment
4324,128329_fnca,4,2,Punishment,5,5,3.0,0,469,13,1,1,0,0,2.0,2.0,1.0,Reward,,MostlyPunishment
4325,128329_fnca,5,2,Reward,6,5,2.0,0,586,14,1,0,1,0,3.0,3.0,1.0,Punishment,,MostlyPunishment
4326,128329_fnca,6,2,Punishment,7,5,3.0,0,499,14,1,1,0,0,2.0,2.0,1.0,Reward,,MostlyPunishment
4327,128329_fnca,7,2,Punishment,8,5,2.0,0,470,13,1,0,1,0,2.0,3.0,0.0,Punishment,,MostlyPunishment
4329,128329_fnca,10,2,Reward,10,5,2.0,0,1090,13,3,0,3,0,3.0,,1.0,,,MostlyReward
4330,128329_fnca,11,2,Neutral,11,5,3.0,0,513,13,1,1,0,0,2.0,2.0,1.0,Reward,,MostlyReward
4331,128329_fnca,12,2,Reward,12,5,2.0,0,638,13,1,0,1,0,3.0,3.0,1.0,Neutral,,MostlyReward
4332,128329_fnca,13,2,Reward,13,5,3.0,0,520,14,1,1,0,0,2.0,2.0,1.0,Reward,,MostlyReward
4333,128329_fnca,14,2,Reward,14,5,2.0,0,1390,13,1,0,1,0,3.0,3.0,1.0,Reward,,MostlyReward
4334,128329_fnca,15,2,Reward,15,5,3.0,0,429,13,1,1,0,0,2.0,2.0,1.0,Reward,,MostlyReward
4335,128329_fnca,16,2,Neutral,16,5,2.0,0,407,13,1,0,1,0,2.0,3.0,0.0,Reward,,MostlyReward
4337,128329_fnca,19,2,Punishment,18,5,2.0,0,854,13,3,0,3,0,2.0,,0.0,,,MostlyPunishment
4338,128329_fnca,20,2,Punishment,19,5,2.0,0,514,14,4,0,4,0,2.0,2.0,0.0,Punishment,,MostlyPunishment
4339,128329_fnca,21,2,Reward,20,5,2.0,0,485,13,5,0,5,0,2.0,2.0,0.0,Punishment,,MostlyPunishment
4340,128329_fnca,22,2,Punishment,21,5,2.0,0,641,13,6,0,6,0,3.0,2.0,1.0,Reward,,MostlyPunishment
4341,128329_fnca,23,2,Reward,22,5,3.0,0,624,14,1,1,0,0,3.0,2.0,0.0,Punishment,,MostlyPunishment
4342,128329_fnca,24,2,Punishment,23,5,3.0,0,704,14,2,2,0,0,2.0,3.0,1.0,Reward,,MostlyPunishment
4343,128329_fnca,25,2,Punishment,24,5,2.0,0,1414,13,1,0,1,0,3.0,3.0,1.0,Punishment,,MostlyPunishment
4345,128329_fnca,28,2,Reward,26,5,3.0,0,796,14,2,2,0,0,3.0,,0.0,,MostlyReward,MostlyReward
4346,128329_fnca,29,2,Reward,27,5,3.0,0,508,13,3,3,0,0,3.0,3.0,0.0,Reward,MostlyReward,MostlyReward
4347,128329_fnca,30,2,Punishment,28,5,3.0,0,767,13,4,4,0,0,2.0,3.0,1.0,Reward,MostlyReward,MostlyReward
4348,128329_fnca,31,2,Reward,29,5,2.0,0,643,13,1,0,1,0,3.0,3.0,1.0,Punishment,MostlyReward,MostlyReward
4349,128329_fnca,32,2,Punishment,30,5,3.0,0,564,14,1,1,0,0,3.0,2.0,0.0,Reward,MostlyReward,MostlyReward
4350,128329_fnca,33,2,Reward,31,5,3.0,0,484,14,2,2,0,0,2.0,3.0,1.0,Punishment,MostlyReward,MostlyReward
4351,128329_fnca,34,2,Reward,32,5,2.0,0,602,13,1,0,1,0,2.0,3.0,0.0,Reward,MostlyReward,MostlyReward
